{
  "resourceType": "Bundle",
  "id": "AMLsandoz-10mg-Tablet-SE-IS-MedicinalProductDefinition-BBDL",
  "type": "transaction",
  "entry": [
    {
      "resource": {
        "resourceType": "MedicinalProductDefinition",
        "id": "AMLsandoz-10mg-Tablet-SE-IS-MedicinalProductDefinition",
        "meta": {
          "profile": [
            "http://unicom-project.eu/fhir/StructureDefinition/PPLMedicinalProductDefinition"
          ]
        },
        "identifier": [
          {
            "system": "http://ema.europa.eu/fhir/mpId",
            "value": "SE-100000848-00023888"
          }
        ],
        "name": [
          {
            "part": [
              {
                "type": {
                  "coding": [
                    {
                      "code": "220000000002",
                      "system": "https://spor.ema.europa.eu/v1/lists/220000000000",
                      "display": "Invented name part"
                    }
                  ]
                },
                "part": "Amlodipin Sandoz"
              },
              {
                "type": {
                  "coding": [
                    {
                      "code": "220000000004",
                      "system": "https://spor.ema.europa.eu/v1/lists/220000000000",
                      "display": "Strength part"
                    }
                  ]
                },
                "part": "10 mg"
              },
              {
                "type": {
                  "coding": [
                    {
                      "code": "220000000005",
                      "system": "https://spor.ema.europa.eu/v1/lists/220000000000",
                      "display": "Pharmaceutical dose form part"
                    }
                  ]
                },
                "part": "Tablett"
              }
            ],
            "usage": [
              {
                "country": {
                  "coding": [
                    {
                      "system": "https://spor.ema.europa.eu/v1/lists/100000000002",
                      "code": "100000000535",
                      "display": "Kingdom of Sweden"
                    }
                  ]
                },
                "language": {
                  "coding": [
                    {
                      "system": "https://spor.ema.europa.eu/v1/lists/100000072057",
                      "code": "100000072288",
                      "display": "Swedish"
                    }
                  ]
                }
              }
            ],
            "productName": "Amlodipin Sandoz 10 mg Tablett"
          }
        ],
        "combinedPharmaceuticalDoseForm": {
          "coding": [
            {
              "code": "100000073664",
              "system": "https://spor.ema.europa.eu/v1/lists/200000000004",
              "display": "Tablet"
            }
          ]
        },
        "domain": {
          "coding": [
            {
              "code": "100000000012",
              "system": "https://spor.ema.europa.eu/v1/lists/100000000004",
              "display": "Human use"
            }
          ]
        },
        "status": {
          "coding": [
            {
              "code": "200000005004",
              "system": "https://spor.ema.europa.eu/v1/lists/200000005003",
              "display": "Current"
            }
          ]
        },
        "indication": "Hypertoni. Kronisk stabil angina pectoris. Vasospastisk (Prinzmetals) angina.",
        "legalStatusOfSupply": {
          "coding": [
            {
              "code": "100000072084",
              "system": "https://spor.ema.europa.eu/v1/lists/100000072051",
              "display": "Medicinal product subject to medical prescription"
            }
          ]
        },
        "classification": [
          {
            "coding": [
              {
                "code": "100000095065",
                "system": "https://spor.ema.europa.eu/v1/lists/100000093533",
                "display": "amlodipine"
              }
            ]
          },
          {
            "coding": [
              {
                "code": "C08CA01",
                "system": "http://www.whocc.no/atc",
                "display": "amlodipine"
              }
            ]
          }
        ]
      },
      "request": {
        "method": "PUT",
        "url": "MedicinalProductDefinition/AMLsandoz-10mg-Tablet-SE-IS-MedicinalProductDefinition"
      },
      "fullUrl": "https://hl7-eu.github.io/unicom-ig/branches/mpd-r4b/MedicinalProductDefinition/AMLsandoz-10mg-Tablet-SE-IS-MedicinalProductDefinition"
    },
    {
      "resource": {
        "resourceType": "AdministrableProductDefinition",
        "id": "AMLsandoz-10mg-Tablet-SE-IS-AdministrableProductDefinition",
        "meta": {
          "profile": [
            "http://unicom-project.eu/fhir/StructureDefinition/PPLAdministrableProductDefinition"
          ]
        },
        "status": "active",
        "formOf": [
          {
            "reference": "MedicinalProductDefinition/AMLsandoz-10mg-Tablet-SE-IS-MedicinalProductDefinition"
          }
        ],
        "administrableDoseForm": {
          "coding": [
            {
              "code": "100000073664",
              "system": "https://spor.ema.europa.eu/v1/lists/200000000004",
              "display": "Tablet"
            }
          ]
        },
        "unitOfPresentation": {
          "coding": [
            {
              "code": "200000002152",
              "system": "https://spor.ema.europa.eu/v1/lists/200000000014",
              "display": "Tablet"
            }
          ]
        },
        "producedFrom": [
          {
            "reference": "ManufacturedItemDefinition/AMLsandoz-10mg-Tablet-SE-IS-ManufacturedItemDefinition"
          }
        ],
        "routeOfAdministration": [
          {
            "code": {
              "coding": [
                {
                  "code": "100000073619",
                  "system": "https://spor.ema.europa.eu/v1/lists/100000073345",
                  "display": "Oral use"
                }
              ]
            }
          }
        ]
      },
      "request": {
        "method": "PUT",
        "url": "AdministrableProductDefinition/AMLsandoz-10mg-Tablet-SE-IS-AdministrableProductDefinition"
      },
      "fullUrl": "https://hl7-eu.github.io/unicom-ig/branches/mpd-r4b/AdministrableProductDefinition/AMLsandoz-10mg-Tablet-SE-IS-AdministrableProductDefinition"
    },
    {
      "resource": {
        "resourceType": "RegulatedAuthorization",
        "id": "AMLsandoz-10mg-Tablet-SE-IS-RegulatedAuthorization",
        "meta": {
          "lastUpdated": "2022-10-08T11:11:06.591+00:00",
          "profile": [
            "http://unicom-project.eu/fhir/StructureDefinition/PPLRegulatedAuthorization"
          ]
        },
        "type": {
          "coding": [
            {
              "code": "220000000061",
              "system": "https://spor.ema.europa.eu/v1/lists/220000000060",
              "display": "Marketing Authorisation"
            }
          ]
        },
        "identifier": [
          {
            "value": "23888"
          }
        ],
        "subject": [
          {
            "reference": "MedicinalProductDefinition/AMLsandoz-10mg-Tablet-SE-IS-MedicinalProductDefinition"
          }
        ],
        "region": [
          {
            "coding": [
              {
                "code": "100000000535",
                "system": "https://spor.ema.europa.eu/v1/lists/100000000002",
                "display": "Kingdom of Sweden"
              }
            ]
          }
        ],
        "status": {
          "coding": [
            {
              "code": "100000072099",
              "system": "https://spor.ema.europa.eu/v1/lists/100000072049",
              "display": "Valid"
            }
          ]
        },
        "statusDate": "2007-04-20",
        "holder": {
          "reference": "Organization/LOC-100001468-SandozAS"
        }
      },
      "request": {
        "method": "PUT",
        "url": "RegulatedAuthorization/AMLsandoz-10mg-Tablet-SE-IS-RegulatedAuthorization"
      },
      "fullUrl": "https://hl7-eu.github.io/unicom-ig/branches/mpd-r4b/RegulatedAuthorization/AMLsandoz-10mg-Tablet-SE-IS-RegulatedAuthorization"
    },
    {
      "resource": {
        "resourceType": "Organization",
        "id": "LOC-100001468-SandozAS",
        "meta": {
          "profile": [
            "http://unicom-project.eu/fhir/StructureDefinition/PPLOrganization"
          ]
        },
        "identifier": [
          {
            "system": "https://spor.ema.europa.eu/v1/locations",
            "value": "LOC-100001468"
          }
        ],
        "name": "Sandoz A/S"
      },
      "request": {
        "method": "PUT",
        "url": "Organization/LOC-100001468-SandozAS"
      },
      "fullUrl": "https://hl7-eu.github.io/unicom-ig/branches/mpd-r4b/Organization/LOC-100001468-SandozAS"
    },
    {
      "resource": {
        "resourceType": "PackagedProductDefinition",
        "id": "AMLsandoz-10mg-Tablet-SE-IS-PackagedProductDefinition01",
        "meta": {
          "profile": [
            "http://unicom-project.eu/fhir/StructureDefinition/PPLPackagedProductDefinition"
          ]
        },
        "identifier": [
          {
            "system": "http://ema.europa.eu/example/pcid"
          }
        ],
        "containedItemQuantity": [
          {
            "value": 100,
            "code": "200000002152",
            "system": "https://spor.ema.europa.eu/v1/lists/200000000014",
            "unit": "Tablet"
          }
        ],
        "packageFor": [
          {
            "reference": "MedicinalProductDefinition/AMLsandoz-10mg-Tablet-SE-IS-MedicinalProductDefinition"
          }
        ],
        "description": "Burk, 100 tabletter",
        "marketingStatus": [
          {
            "country": {
              "coding": [
                {
                  "code": "100000000535",
                  "system": "https://spor.ema.europa.eu/v1/lists/100000000002",
                  "display": "Kingdom of Sweden"
                }
              ]
            },
            "status": {
              "coding": [
                {
                  "code": "100000072083",
                  "system": "https://spor.ema.europa.eu/v1/lists/100000072052",
                  "display": "Marketed"
                }
              ]
            }
          }
        ],
        "packaging": {
          "type": {
            "coding": [
              {
                "code": "100000073498",
                "system": "https://spor.ema.europa.eu/v1/lists/100000073346",
                "display": "Box"
              }
            ]
          },
          "quantity": 1,
          "material": [
            {
              "coding": [
                {
                  "code": "200000003529",
                  "system": "https://spor.ema.europa.eu/v1/lists/200000003199",
                  "display": "Cardboard"
                }
              ]
            }
          ],
          "packaging": [
            {
              "type": {
                "coding": [
                  {
                    "code": "100000073497",
                    "system": "https://spor.ema.europa.eu/v1/lists/100000073346",
                    "display": "Bottle"
                  }
                ]
              },
              "quantity": 1,
              "material": [
                {
                  "coding": [
                    {
                      "code": "200000003215",
                      "system": "https://spor.ema.europa.eu/v1/lists/200000003199",
                      "display": "High Density PolyEthylene"
                    }
                  ]
                }
              ],
              "containedItem": [
                {
                  "item": {
                    "reference": {
                      "reference": "ManufacturedItemDefinition/AMLsandoz-10mg-Tablet-SE-IS-ManufacturedItemDefinition"
                    }
                  },
                  "amount": {
                    "value": 100,
                    "code": "200000002152",
                    "system": "https://spor.ema.europa.eu/v1/lists/200000000014",
                    "unit": "Tablet"
                  }
                }
              ]
            }
          ]
        }
      },
      "request": {
        "method": "PUT",
        "url": "PackagedProductDefinition/AMLsandoz-10mg-Tablet-SE-IS-PackagedProductDefinition01"
      },
      "fullUrl": "https://hl7-eu.github.io/unicom-ig/branches/mpd-r4b/PackagedProductDefinition/AMLsandoz-10mg-Tablet-SE-IS-PackagedProductDefinition01"
    },
    {
      "resource": {
        "resourceType": "PackagedProductDefinition",
        "id": "AMLsandoz-10mg-Tablet-SE-IS-PackagedProductDefinition02",
        "meta": {
          "profile": [
            "http://unicom-project.eu/fhir/StructureDefinition/PPLPackagedProductDefinition"
          ]
        },
        "identifier": [
          {
            "system": "http://ema.europa.eu/example/pcid"
          }
        ],
        "containedItemQuantity": [
          {
            "value": 105,
            "code": "200000002152",
            "system": "https://spor.ema.europa.eu/v1/lists/200000000014",
            "unit": "Tablet"
          }
        ],
        "packageFor": [
          {
            "reference": "MedicinalProductDefinition/AMLsandoz-10mg-Tablet-SE-IS-MedicinalProductDefinition"
          }
        ],
        "description": "Burk, 105 tabletter",
        "marketingStatus": [
          {
            "country": {
              "coding": [
                {
                  "code": "100000000535",
                  "system": "https://spor.ema.europa.eu/v1/lists/100000000002",
                  "display": "Kingdom of Sweden"
                }
              ]
            },
            "status": {
              "coding": [
                {
                  "code": "100000072083",
                  "system": "https://spor.ema.europa.eu/v1/lists/100000072052",
                  "display": "Marketed"
                }
              ]
            }
          }
        ],
        "packaging": {
          "type": {
            "coding": [
              {
                "code": "100000073498",
                "system": "https://spor.ema.europa.eu/v1/lists/100000073346",
                "display": "Box"
              }
            ]
          },
          "quantity": 1,
          "material": [
            {
              "coding": [
                {
                  "code": "200000003529",
                  "system": "https://spor.ema.europa.eu/v1/lists/200000003199",
                  "display": "Cardboard"
                }
              ]
            }
          ],
          "packaging": [
            {
              "type": {
                "coding": [
                  {
                    "code": "100000073497",
                    "system": "https://spor.ema.europa.eu/v1/lists/100000073346",
                    "display": "Bottle"
                  }
                ]
              },
              "quantity": 1,
              "material": [
                {
                  "coding": [
                    {
                      "code": "200000003215",
                      "system": "https://spor.ema.europa.eu/v1/lists/200000003199",
                      "display": "High Density PolyEthylene"
                    }
                  ]
                }
              ],
              "containedItem": [
                {
                  "item": {
                    "reference": {
                      "reference": "ManufacturedItemDefinition/AMLsandoz-10mg-Tablet-SE-IS-ManufacturedItemDefinition"
                    }
                  },
                  "amount": {
                    "value": 105,
                    "code": "200000002152",
                    "system": "https://spor.ema.europa.eu/v1/lists/200000000014",
                    "unit": "Tablet"
                  }
                }
              ]
            }
          ]
        }
      },
      "request": {
        "method": "PUT",
        "url": "PackagedProductDefinition/AMLsandoz-10mg-Tablet-SE-IS-PackagedProductDefinition02"
      },
      "fullUrl": "https://hl7-eu.github.io/unicom-ig/branches/mpd-r4b/PackagedProductDefinition/AMLsandoz-10mg-Tablet-SE-IS-PackagedProductDefinition02"
    },
    {
      "resource": {
        "resourceType": "PackagedProductDefinition",
        "id": "AMLsandoz-10mg-Tablet-SE-IS-PackagedProductDefinition03",
        "meta": {
          "profile": [
            "http://unicom-project.eu/fhir/StructureDefinition/PPLPackagedProductDefinition"
          ]
        },
        "identifier": [
          {
            "system": "http://ema.europa.eu/example/pcid"
          }
        ],
        "containedItemQuantity": [
          {
            "value": 250,
            "code": "200000002152",
            "system": "https://spor.ema.europa.eu/v1/lists/200000000014",
            "unit": "Tablet"
          }
        ],
        "packageFor": [
          {
            "reference": "MedicinalProductDefinition/AMLsandoz-10mg-Tablet-SE-IS-MedicinalProductDefinition"
          }
        ],
        "description": "Burk, 250 tabletter (dosdispensering)",
        "marketingStatus": [
          {
            "country": {
              "coding": [
                {
                  "code": "100000000535",
                  "system": "https://spor.ema.europa.eu/v1/lists/100000000002",
                  "display": "Kingdom of Sweden"
                }
              ]
            },
            "status": {
              "coding": [
                {
                  "code": "100000072083",
                  "system": "https://spor.ema.europa.eu/v1/lists/100000072052",
                  "display": "Marketed"
                }
              ]
            }
          }
        ],
        "packaging": {
          "type": {
            "coding": [
              {
                "code": "100000073498",
                "system": "https://spor.ema.europa.eu/v1/lists/100000073346",
                "display": "Box"
              }
            ]
          },
          "quantity": 1,
          "material": [
            {
              "coding": [
                {
                  "code": "200000003529",
                  "system": "https://spor.ema.europa.eu/v1/lists/200000003199",
                  "display": "Cardboard"
                }
              ]
            }
          ],
          "packaging": [
            {
              "type": {
                "coding": [
                  {
                    "code": "100000073497",
                    "system": "https://spor.ema.europa.eu/v1/lists/100000073346",
                    "display": "Bottle"
                  }
                ]
              },
              "quantity": 1,
              "material": [
                {
                  "coding": [
                    {
                      "code": "200000003215",
                      "system": "https://spor.ema.europa.eu/v1/lists/200000003199",
                      "display": "High Density PolyEthylene"
                    }
                  ]
                }
              ],
              "containedItem": [
                {
                  "item": {
                    "reference": {
                      "reference": "ManufacturedItemDefinition/AMLsandoz-10mg-Tablet-SE-IS-ManufacturedItemDefinition"
                    }
                  },
                  "amount": {
                    "value": 250,
                    "code": "200000002152",
                    "system": "https://spor.ema.europa.eu/v1/lists/200000000014",
                    "unit": "Tablet"
                  }
                }
              ]
            }
          ]
        }
      },
      "request": {
        "method": "PUT",
        "url": "PackagedProductDefinition/AMLsandoz-10mg-Tablet-SE-IS-PackagedProductDefinition03"
      },
      "fullUrl": "https://hl7-eu.github.io/unicom-ig/branches/mpd-r4b/PackagedProductDefinition/AMLsandoz-10mg-Tablet-SE-IS-PackagedProductDefinition03"
    },
    {
      "resource": {
        "resourceType": "ManufacturedItemDefinition",
        "id": "AMLsandoz-10mg-Tablet-SE-IS-ManufacturedItemDefinition",
        "meta": {
          "profile": [
            "http://unicom-project.eu/fhir/StructureDefinition/PPLManufacturedItemDefinition"
          ]
        },
        "status": "active",
        "manufacturedDoseForm": {
          "coding": [
            {
              "code": "100000073664",
              "system": "https://spor.ema.europa.eu/v1/lists/200000000004",
              "display": "Tablet"
            }
          ]
        },
        "unitOfPresentation": {
          "coding": [
            {
              "code": "200000002152",
              "system": "https://spor.ema.europa.eu/v1/lists/200000000014",
              "display": "Tablet"
            }
          ]
        }
      },
      "request": {
        "method": "PUT",
        "url": "ManufacturedItemDefinition/AMLsandoz-10mg-Tablet-SE-IS-ManufacturedItemDefinition"
      },
      "fullUrl": "https://hl7-eu.github.io/unicom-ig/branches/mpd-r4b/ManufacturedItemDefinition/AMLsandoz-10mg-Tablet-SE-IS-ManufacturedItemDefinition"
    },
    {
      "resource": {
        "resourceType": "Ingredient",
        "id": "AMLsandoz-10mg-Tablet-SE-IS-Ingredient",
        "meta": {
          "profile": [
            "http://unicom-project.eu/fhir/StructureDefinition/PPLIngredient"
          ]
        },
        "status": "active",
        "for": [
          {
            "reference": "MedicinalProductDefinition/AMLsandoz-10mg-Tablet-SE-IS-MedicinalProductDefinition"
          },
          {
            "reference": "ManufacturedItemDefinition/AMLsandoz-10mg-Tablet-SE-IS-ManufacturedItemDefinition"
          },
          {
            "reference": "AdministrableProductDefinition/AMLsandoz-10mg-Tablet-SE-IS-AdministrableProductDefinition"
          }
        ],
        "role": {
          "coding": [
            {
              "code": "100000072072",
              "system": "https://spor.ema.europa.eu/v1/lists/100000072050",
              "display": "Active"
            }
          ]
        },
        "substance": {
          "code": {
            "concept": {
              "coding": [
                {
                  "code": "100000090079",
                  "system": "https://spor.ema.europa.eu/v2/SubstanceDefinition",
                  "display": "Amlodipine besilate"
                }
              ]
            }
          },
          "strength": [
            {
              "presentationRatio": {
                "numerator": {
                  "value": 13.87,
                  "code": "100000110655",
                  "system": "https://spor.ema.europa.eu/v1/lists/100000110633",
                  "unit": "milligram(s)"
                },
                "denominator": {
                  "value": 1,
                  "code": "100000110756",
                  "system": "https://spor.ema.europa.eu/v1/lists/100000110633",
                  "unit": "unit(s)"
                }
              },
              "referenceStrength": [
                {
                  "substance": {
                    "concept": {
                      "coding": [
                        {
                          "code": "100000085259",
                          "system": "https://spor.ema.europa.eu/v2/SubstanceDefinition",
                          "display": "Amlodipine"
                        }
                      ]
                    }
                  },
                  "strengthRatio": {
                    "numerator": {
                      "value": 10,
                      "code": "100000110655",
                      "system": "https://spor.ema.europa.eu/v1/lists/100000110633",
                      "unit": "milligram(s)"
                    },
                    "denominator": {
                      "value": 1,
                      "code": "100000110756",
                      "system": "https://spor.ema.europa.eu/v1/lists/100000110633",
                      "unit": "unit(s)"
                    }
                  }
                }
              ]
            }
          ]
        }
      },
      "request": {
        "method": "PUT",
        "url": "Ingredient/AMLsandoz-10mg-Tablet-SE-IS-Ingredient"
      },
      "fullUrl": "https://hl7-eu.github.io/unicom-ig/branches/mpd-r4b/Ingredient/AMLsandoz-10mg-Tablet-SE-IS-Ingredient"
    }
  ]
}
